File: data/XRD/TiVNbHfCr_5-90deg_OEC_1_06dec23.ASC
5.00836 427 20.664
5.07636 401.719 20.0429
5.14436 395.268 19.8813
5.21236 382.817 19.5657
5.28036 389.269 19.7299
5.34836 384.691 19.6135
5.41636 368.804 19.2043
5.48436 402.165 20.0541
5.55236 407.87 20.1958
5.62036 386.814 19.6676
5.68836 398.278 19.9569
5.75636 396.632 19.9156
5.82436 392.587 19.8138
5.89236 386.305 19.6546
5.96036 378.292 19.4497
6.02836 375.963 19.3898
6.09636 367.471 19.1695
6.16436 399.197 19.9799
6.23236 386.168 19.6512
6.30036 367.565 19.172
6.36836 412.974 20.3218
6.43636 367.575 19.1722
6.50436 380.695 19.5114
6.57236 368.201 19.1886
6.64036 358.976 18.9467
6.70836 403.477 20.0867
6.77636 360.078 18.9757
6.84436 350.969 18.7342
6.91236 366.416 19.142
6.98036 384.79 19.6161
7.04836 341.472 18.479
7.11636 341.997 18.4932
7.18436 379.423 19.4788
7.25236 348.3 18.6628
7.32036 381.951 19.5436
7.38836 357.309 18.9026
7.45636 357.904 18.9183
7.52436 382.087 19.547
7.59236 338.655 18.4026
7.66036 356.313 18.8762
7.72836 382.524 19.5582
7.79636 339.503 18.4256
7.86436 351.097 18.7376
7.93236 319.65 17.8788
8.00036 365.366 19.1145
8.06836 366.821 19.1526
8.13636 376.074 19.3926
8.20436 336.482 18.3434
8.27236 341.289 18.474
8.34036 361 19
8.40836 348.601 18.6709
8.47636 361.458 19.012
8.54436 309.938 17.605
8.61236 319.023 17.8612
8.68036 321.165 17.9211
8.74836 329.823 18.161
8.81636 341.404 18.4771
8.88436 321.428 17.9284
8.95236 332.21 18.2266
9.02036 356.132 18.8715
9.08836 329.812 18.1607
9.15636 302.962 17.4058
9.22436 356.018 18.8684
9.29236 314.416 17.7318
9.36036 369.885 19.2324
9.42836 322.797 17.9665
9.49636 345.258 18.5811
9.56436 339.457 18.4244
9.63236 337.719 18.3771
9.70036 335.231 18.3093
9.76836 332.921 18.2461
9.83636 326.814 18.078
9.90436 345.255 18.581
9.97236 345.594 18.5902
10.0404 319.657 17.879
10.1084 344.084 18.5495
10.1764 347.137 18.6316
10.2444 346.144 18.6049
10.3124 342.672 18.5114
10.3804 344.493 18.5605
10.4484 334.74 18.2959
10.5164 337.339 18.3668
10.5844 345.665 18.5921
10.6524 315.472 17.7615
10.7204 325.584 18.044
10.7884 343.889 18.5442
10.8564 353.718 18.8074
10.9244 362.672 19.044
10.9924 325.183 18.0328
11.0604 326.374 18.0658
11.1284 362.141 19.03
11.1964 331.555 18.2086
11.2644 341.762 18.4868
11.3324 342.318 18.5018
11.4004 372.496 19.3002
11.4684 330.786 18.1875
11.5364 337.769 18.3785
11.6044 337.666 18.3757
11.6724 360.588 18.9892
11.7404 313.216 17.6979
11.8084 345.69 18.5927
11.8764 340.456 18.4515
11.9444 370.487 19.248
12.0124 341.025 18.4669
12.0804 355.375 18.8514
12.1484 365.46 19.117
12.2164 360.514 18.9872
12.2844 351.498 18.7483
12.3524 332.825 18.2435
12.4204 348.524 18.6688
12.4884 341.183 18.4711
12.5564 365.343 19.1139
12.6244 378.721 19.4607
12.6924 315.429 17.7603
12.7604 328.914 18.136
12.8284 348.562 18.6698
12.8964 375.697 19.3829
12.9644 363.969 19.078
13.0324 347.085 18.6302
13.1004 340.466 18.4517
13.1684 354.736 18.8344
13.2364 351.624 18.7516
13.3044 360.274 18.9809
13.3724 353.504 18.8017
13.4404 350.164 18.7127
13.5084 362.334 19.0351
13.5764 319.356 17.8705
13.6444 360.764 18.9938
13.7124 374.461 19.351
13.7804 344.898 18.5714
13.8484 327.672 18.1017
13.9164 361.396 19.0104
13.9844 342.478 18.5062
14.0524 348.575 18.6702
14.1204 368.045 19.1845
14.1884 374.299 19.3468
14.2564 348.803 18.6763
14.3244 342.895 18.5174
14.3924 376.67 19.408
14.4604 347.946 18.6533
14.5284 368.781 19.2037
14.5964 350.913 18.7327
14.6644 352.844 18.7841
14.7324 351.414 18.746
14.8004 356.856 18.8906
14.8684 366.706 19.1496
14.9364 363.73 19.0717
15.0044 375.318 19.3731
15.0724 345.795 18.5956
15.1404 356.646 18.8851
15.2084 357.633 18.9112
15.2764 339.22 18.4179
15.3444 355.048 18.8427
15.4124 338.852 18.4079
15.4804 369.282 19.2167
15.5484 352.985 18.7879
15.6164 352.687 18.78
15.6844 361.204 19.0054
15.7524 373.053 19.3146
15.8204 344.297 18.5552
15.8884 376.289 19.3982
15.9564 354.648 18.8321
16.0244 357.339 18.9034
16.0924 356.24 18.8743
16.1604 358.365 18.9305
16.2284 372.307 19.2952
16.2964 342.277 18.5007
16.3644 358.404 18.9316
16.4324 361.937 19.0247
16.5004 391.468 19.7856
16.5684 355.212 18.8471
16.6364 349.272 18.6888
16.7044 360.661 18.9911
16.7724 351.527 18.749
16.8404 382.117 19.5478
16.9084 383.038 19.5714
16.9764 331.048 18.1947
17.0444 386.535 19.6605
17.1124 379.827 19.4891
17.1804 372.764 19.3071
17.2484 355.798 18.8626
17.3164 373.383 19.3231
17.3844 351.156 18.7392
17.4524 347.528 18.6421
17.5204 356.596 18.8837
17.5884 341.146 18.4701
17.6564 346.564 18.6162
17.7244 352.924 18.7863
17.7924 352.159 18.7659
17.8604 361.804 19.0212
17.9284 351.214 18.7407
17.9964 355.997 18.8679
18.0644 372.654 19.3043
18.1324 363.737 19.0719
18.2004 360.518 18.9873
18.2684 350.516 18.7221
18.3364 372.1 19.2899
18.4044 342.507 18.5069
18.4724 331.213 18.1993
18.5404 340.657 18.4569
18.6084 371.552 19.2757
18.6764 354.176 18.8196
18.7444 369.802 19.2302
18.8124 354.441 18.8266
18.8804 324.858 18.0238
18.9484 359.418 18.9583
19.0164 351.134 18.7386
19.0844 367.494 19.1701
19.1524 354.5 18.8282
19.2204 325.217 18.0338
19.2884 362.17 19.0308
19.3564 330.671 18.1844
19.4244 349.771 18.7022
19.4924 347.148 18.6319
19.5604 390.586 19.7632
19.6284 361.599 19.0158
19.6964 332.216 18.2268
19.7644 358.06 18.9225
19.8324 365.802 19.1259
19.9004 361.65 19.0171
19.9684 349.57 18.6968
20.0364 332.562 18.2363
20.1044 335.906 18.3277
20.1724 333.649 18.2661
20.2404 347.135 18.6316
20.3084 365.046 19.1062
20.3764 346.431 18.6127
20.4444 360.431 18.985
20.5124 351.486 18.7479
20.5804 364.873 19.1017
20.6484 364.464 19.0909
20.7164 389.871 19.7452
20.7844 338.865 18.4083
20.8524 351.363 18.7447
20.9204 350.563 18.7233
20.9884 391.663 19.7905
21.0564 366.729 19.1502
21.1244 358.621 18.9373
21.1924 342.069 18.4951
21.2604 341.587 18.4821
21.3284 320.24 17.8953
21.3964 343.894 18.5444
21.4644 345.596 18.5902
21.5324 384.022 19.5965
21.6004 358.026 18.9216
21.6684 378.894 19.4652
21.7364 356.966 18.8935
21.8044 325.406 18.039
21.8724 360.818 18.9952
21.9404 346.536 18.6155
22.0084 360.615 18.9899
22.0764 361.171 19.0045
22.1444 345.713 18.5934
22.2124 331.519 18.2077
22.2804 339.743 18.4321
22.3484 349.536 18.6959
22.4164 355.154 18.8455
22.4844 345.249 18.5809
22.5524 345.051 18.5755
22.6204 324.1 18.0028
22.6884 372.5 19.3003
22.7564 331.854 18.2169
22.8244 365.005 19.1051
22.8924 357.225 18.9004
22.9604 355.226 18.8474
23.0284 352.171 18.7662
23.0964 341.383 18.4766
23.1644 349.073 18.6835
23.2324 326.303 18.0638
23.3004 334.553 18.2908
23.3684 335.02 18.3036
23.4364 332.263 18.2281
23.5044 307.453 17.5343
23.5724 338.79 18.4062
23.6404 339.172 18.4166
23.7084 347.849 18.6507
23.7764 357.553 18.9091
23.8444 321.149 17.9206
23.9124 320.851 17.9123
23.9804 336.618 18.3472
24.0484 357.261 18.9013
24.1164 349.561 18.6965
24.1844 341.121 18.4695
24.2524 359.068 18.9491
24.3204 338.277 18.3923
24.3884 345.444 18.5861
24.4564 374.858 19.3613
24.5244 343.281 18.5278
24.5924 348.539 18.6692
24.6604 316.245 17.7833
24.7284 352.832 18.7838
24.7964 340.887 18.4631
24.8644 318.047 17.8339
24.9324 317.733 17.8251
25.0004 337.777 18.3787
25.0684 325.14 18.0316
25.1364 337.433 18.3693
25.2044 335.817 18.3253
25.2724 334.025 18.2764
25.3404 334.976 18.3024
25.4084 342.601 18.5095
25.4764 341.508 18.4799
25.5444 330.643 18.1836
25.6124 338.095 18.3874
25.6804 322.971 17.9714
25.7484 320.305 17.8971
25.8164 312.591 17.6803
25.8844 347.625 18.6447
25.9524 311.851 17.6593
26.0204 340.907 18.4637
26.0884 342.243 18.4998
26.1564 321.387 17.9273
26.2244 356.063 18.8696
26.2924 313.842 17.7156
26.3604 325.387 18.0385
26.4284 334.555 18.2908
26.4964 317.027 17.8053
26.5644 313.219 17.698
26.6324 301.572 17.3658
26.7004 334.63 18.2929
26.7684 342.039 18.4943
26.8364 356.971 18.8937
26.9044 356.464 18.8803
26.9724 332.035 18.2218
27.0404 314.649 17.7384
27.1084 325.695 18.047
27.1764 309.76 17.6
27.2444 310.797 17.6294
27.3124 343.28 18.5278
27.3804 348.788 18.6759
27.4484 297.677 17.2533
27.5164 324.235 18.0065
27.5844 335.719 18.3226
27.6524 327.807 18.1054
27.7204 308 17.5499
27.7884 315.064 17.75
27.8564 343.713 18.5395
27.9244 341.485 18.4793
27.9924 339.501 18.4255
28.0604 327.861 18.1069
28.1284 323.502 17.9862
28.1964 345.467 18.5867
28.2644 347.272 18.6352
28.3324 341.147 18.4702
28.4004 355.22 18.8473
28.4684 318.138 17.8364
28.5364 342.806 18.515
28.6044 346.608 18.6174
28.6724 320.899 17.9137
28.7404 346.478 18.6139
28.8084 327.245 18.0899
28.8764 324.258 18.0072
28.9444 340.383 18.4495
29.0124 324.416 18.0116
29.0804 354.186 18.8198
29.1484 322.726 17.9646
29.2164 338.793 18.4063
29.2844 304.206 17.4415
29.3524 323.034 17.9731
29.4204 312.136 17.6674
29.4884 330.645 18.1836
29.5564 317.358 17.8145
29.6244 327.054 18.0846
29.6924 330.746 18.1864
29.7604 321.687 17.9356
29.8284 324.225 18.0063
29.8964 371.644 19.2781
29.9644 330.453 18.1784
30.0324 345.625 18.591
30.1004 370.067 19.2371
30.1684 379.115 19.4709
30.2364 396.64 19.9158
30.3044 434.019 20.8331
30.3724 428.455 20.6992
30.4404 464.626 21.5552
30.5084 526.579 22.9473
30.5764 534.754 23.1248
30.6444 562.743 23.7222
30.7124 570.733 23.89
30.7804 591.929 24.3296
30.8484 611.76 24.7338
30.9164 610.655 24.7114
30.9844 602.207 24.5399
31.0524 675.123 25.9831
31.1204 708.381 26.6154
31.1884 771.973 27.7844
31.2564 805.641 28.3838
31.3244 853.136 29.2085
31.3924 927.079 30.448
31.4604 913.718 30.2278
31.5284 1108.78 33.2984
31.5964 1146.09 33.8539
31.6644 1118.3 33.441
31.7324 1057.07 32.5127
31.8004 884.327 29.7376
31.8684 764.783 27.6547
31.9364 652.232 25.5388
32.0044 516.253 22.7212
32.0724 494.733 22.2426
32.1404 457.275 21.384
32.2084 393.895 19.8468
32.2764 413.713 20.3399
32.3444 359.615 18.9635
32.4124 389.882 19.7454
32.4804 365.508 19.1183
32.5484 347.918 18.6526
32.6164 339.353 18.4215
32.6844 339.824 18.4343
32.7524 318.533 17.8475
32.8204 345.734 18.5939
32.8884 308.982 17.5779
32.9564 323.618 17.9894
33.0244 319.262 17.8679
33.0924 321.085 17.9189
33.1604 314.047 17.7214
33.2284 312.809 17.6864
33.2964 321.25 17.9234
33.3644 313.714 17.712
33.4324 323.888 17.9969
33.5004 343.231 18.5265
33.5684 319.577 17.8767
33.6364 299.764 17.3137
33.7044 310.28 17.6148
33.7724 317.571 17.8205
33.8404 325.183 18.0328
33.9084 331.908 18.2184
33.9764 325.054 18.0292
34.0444 322.796 17.9665
34.1124 351.841 18.7574
34.1804 326.406 18.0667
34.2484 324.65 18.018
34.3164 331.452 18.2058
34.3844 356.941 18.8929
34.4524 326.601 18.0721
34.5204 329.94 18.1642
34.5884 322.009 17.9446
34.6564 336.15 18.3344
34.7244 343.182 18.5252
34.7924 333.674 18.2667
34.8604 309.247 17.5854
34.9284 339.462 18.4245
34.9964 347.057 18.6295
35.0644 347.22 18.6338
35.1324 348.449 18.6668
35.2004 368.536 19.1973
35.2684 337.263 18.3647
35.3364 363.957 19.0776
35.4044 367.43 19.1685
35.4724 414.614 20.3621
35.5404 442.51 21.0359
35.6084 452.399 21.2697
35.6764 431.766 20.779
35.7444 436.476 20.892
35.8124 402.411 20.0602
35.8804 431.533 20.7734
35.9484 419.804 20.4891
36.0164 428.831 20.7082
36.0844 411.823 20.2934
36.1524 421.072 20.52
36.2204 457.869 21.3979
36.2884 411.367 20.2822
36.3564 488.056 22.092
36.4244 436.922 20.9027
36.4924 479.993 21.9087
36.5604 473.269 21.7547
36.6284 515.818 22.7116
36.6964 507.069 22.5182
36.7644 495.467 22.2591
36.8324 446.689 21.135
36.9004 438.331 20.9363
36.9684 416.518 20.4088
37.0364 374.408 19.3496
37.1044 385.341 19.6301
37.1724 350.446 18.7202
37.2404 347.617 18.6445
37.3084 342.968 18.5194
37.3764 335.068 18.3049
37.4444 315.686 17.7676
37.5124 350.652 18.7257
37.5804 339.534 18.4264
37.6484 338.173 18.3895
37.7164 354.274 18.8222
37.7844 352.139 18.7654
37.8524 353.153 18.7924
37.9204 356.045 18.8692
37.9884 340.517 18.4531
38.0564 347.421 18.6392
38.1244 341.041 18.4673
38.1924 341.933 18.4914
38.2604 365.814 19.1263
38.3284 339.679 18.4304
38.3964 336.066 18.3321
38.4644 351.028 18.7358
38.5324 382.713 19.563
38.6004 340.626 18.4561
38.6684 341.017 18.4666
38.7364 359.576 18.9625
38.8044 366.998 19.1572
38.8724 343.341 18.5295
38.9404 347.237 18.6343
39.0084 372.892 19.3104
39.0764 365.655 19.1221
39.1444 365.05 19.1063
39.2124 386.086 19.6491
39.2804 399.346 19.9837
39.3484 407.381 20.1837
39.4164 394.458 19.861
39.4844 431.439 20.7711
39.5524 361.433 19.0114
39.6204 377.09 19.4188
39.6884 371.347 19.2704
39.7564 405.054 20.1259
39.8244 380.999 19.5192
39.8924 355.223 18.8474
39.9604 389.067 19.7248
40.0284 355.224 18.8474
40.0964 394.898 19.872
40.1644 381.858 19.5412
40.2324 403.973 20.0991
40.3004 401.157 20.0289
40.3684 384.875 19.6182
40.4364 392.777 19.8186
40.5044 374.53 19.3528
40.5724 410.317 20.2563
40.6404 401.695 20.0423
40.7084 389.83 19.7441
40.7764 440.182 20.9805
40.8444 442.788 21.0425
40.9124 437.536 20.9174
40.9804 421.357 20.527
41.0484 383.172 19.5748
41.1164 446 21.1187
41.1844 443.364 21.0562
41.2524 484.405 22.0092
41.3204 466 21.587
41.3884 504.664 22.4647
41.4564 489.395 22.1223
41.5244 450.112 21.2159
41.5924 490.835 22.1548
41.6604 403.767 20.094
41.7284 457.123 21.3804
41.7964 432.723 20.802
41.8644 417.495 20.4327
41.9324 424.486 20.6031
42.0004 435.518 20.8691
42.0684 453.7 21.3002
42.1364 436.326 20.8884
42.2044 567.872 23.8301
42.2724 715.039 26.7402
42.3404 851.233 29.1759
42.4084 1048.02 32.3732
42.4764 1161.38 34.0791
42.5444 1297.79 36.0249
42.6124 1388.38 37.261
42.6804 1518.86 38.9726
42.7484 1570.07 39.6241
42.8164 1584.63 39.8074
42.8844 1389.5 37.276
42.9524 1138.98 33.7488
43.0204 931.706 30.5239
43.0884 728.465 26.9901
43.1564 610 24.6982
43.2244 495.079 22.2504
43.2924 473.637 21.7632
43.3604 416.041 20.3971
43.4284 404.905 20.1223
43.4964 383.496 19.5831
43.5644 390.827 19.7693
43.6324 367.133 19.1607
43.7004 381.312 19.5272
43.7684 349.105 18.6844
43.8364 363.227 19.0585
43.9044 354.157 18.8191
43.9724 383.412 19.5809
44.0404 361.967 19.0254
44.1084 375.06 19.3665
44.1764 349.615 18.698
44.2444 356.109 18.8709
44.3124 346.054 18.6025
44.3804 362.536 19.0404
44.4484 331.354 18.2031
44.5164 332.928 18.2463
44.5844 318.002 17.8326
44.6524 313.445 17.7044
44.7204 329.49 18.1518
44.7884 314.555 17.7357
44.8564 338.983 18.4115
44.9244 346.321 18.6097
44.9924 342.39 18.5038
45.0604 304.105 17.4386
45.1284 321.047 17.9178
45.1964 312.228 17.67
45.2644 341.458 18.4786
45.3324 345.297 18.5822
45.4004 363.897 19.0761
45.4684 330.656 18.184
45.5364 310.848 17.6309
45.6044 344.008 18.5475
45.6724 327.798 18.1052
45.7404 311.617 17.6527
45.8084 288.326 16.9802
45.8764 322.598 17.961
45.9444 305.717 17.4848
46.0124 315.256 17.7554
46.0804 300.427 17.3328
46.1484 301.178 17.3545
46.2164 274.928 16.581
46.2844 341.553 18.4812
46.3524 297.422 17.2459
46.4204 322.175 17.9492
46.4884 322.982 17.9717
46.5564 311.248 17.6422
46.6244 309.836 17.6021
46.6924 312.836 17.6872
46.7604 307.455 17.5344
46.8284 305.533 17.4795
46.8964 314.585 17.7366
46.9644 308.488 17.5638
47.0324 324.654 18.0182
47.1004 296.515 17.2196
47.1684 306.364 17.5033
47.2364 297.176 17.2388
47.3044 303.788 17.4295
47.3724 318.822 17.8556
47.4404 272.999 16.5227
47.5084 295.388 17.1869
47.5764 313.053 17.6933
47.6444 299.298 17.3002
47.7124 282.353 16.8034
47.7804 303.65 17.4256
47.8484 305.173 17.4692
47.9164 283.523 16.8381
47.9844 305.866 17.489
48.0524 308.555 17.5657
48.1204 299.15 17.296
48.1884 314.392 17.7311
48.2564 307.588 17.5382
48.3244 306.79 17.5154
48.3924 304.832 17.4595
48.4604 275.979 16.6126
48.5284 299.771 17.3139
48.5964 302.497 17.3925
48.6644 298.796 17.2857
48.7324 318.257 17.8397
48.8004 316.464 17.7894
48.8684 310.39 17.6179
48.9364 319.943 17.8869
49.0044 347.578 18.6434
49.0724 349.187 18.6865
49.1404 351.62 18.7515
49.2084 423.358 20.5757
49.2764 453.728 21.3009
49.3444 492.48 22.1919
49.4124 514.199 22.676
49.4804 587.551 24.2395
49.5484 645.455 25.4058
49.6164 644.104 25.3792
49.6844 691.538 26.2971
49.7524 646.475 25.4259
49.8204 677.526 26.0293
49.8884 665.903 25.8051
49.9564 612.451 24.7478
50.0244 579.014 24.0627
50.0924 460.615 21.4619
50.1604 480.447 21.9191
50.2284 415.875 20.393
50.2964 386.386 19.6567
50.3644 384.323 19.6042
50.4324 349.337 18.6906
50.5004 345.765 18.5948
50.5684 344.344 18.5565
50.6364 340.537 18.4536
50.7044 341.806 18.488
50.7724 319.045 17.8618
50.8404 326.161 18.0599
50.9084 364.137 19.0824
50.9764 329.717 18.1581
51.0444 342.276 18.5007
51.1124 363.855 19.075
51.1804 351.184 18.7399
51.2484 365.796 19.1258
51.3164 313.377 17.7025
51.3844 350.333 18.7172
51.4524 322.314 17.9531
51.5204 334.135 18.2794
51.5884 350.23 18.7144
51.6564 358.443 18.9326
51.7244 373.536 19.3271
51.7924 361.412 19.0108
51.8604 341.617 18.4829
51.9284 389.685 19.7404
51.9964 356.713 18.8868
52.0644 358.931 18.9455
52.1324 362.98 19.052
52.2004 391.44 19.7848
52.2684 363.827 19.0742
52.3364 378.119 19.4453
52.4044 395.76 19.8937
52.4724 425 20.6155
52.5404 403.878 20.0967
52.6084 440.057 20.9775
52.6764 415.608 20.3865
52.7444 435.436 20.8671
52.8124 452.722 21.2773
52.8804 453.116 21.2865
52.9484 407.819 20.1945
53.0164 420.424 20.5042
53.0844 395.361 19.8837
53.1524 380.767 19.5133
53.2204 362.996 19.0525
53.2884 350.247 18.7149
53.3564 342.376 18.5034
53.4244 338.973 18.4112
53.4924 303.827 17.4306
53.5604 299.792 17.3145
53.6284 295 17.1756
53.6964 310.483 17.6205
53.7644 306.597 17.5099
53.8324 305.816 17.4876
53.9004 307.857 17.5459
53.9684 310.76 17.6284
54.0364 301.29 17.3577
54.1044 305.08 17.4665
54.1724 287.967 16.9696
54.2404 297.324 17.2431
54.3084 292.054 17.0896
54.3764 271.258 16.4699
54.4444 310.133 17.6106
54.5124 286.5 16.9263
54.5804 281.514 16.7784
54.6484 288.733 16.9922
54.7164 271.045 16.4635
54.7844 264.933 16.2768
54.8524 282.208 16.7991
54.9204 288.181 16.9759
54.9884 283 16.8226
55.0564 280.037 16.7343
55.1244 274.066 16.5549
55.1924 284.996 16.8818
55.2604 276.564 16.6302
55.3284 283.157 16.8273
55.3964 284.633 16.8711
55.4644 278.72 16.6949
55.5324 282.196 16.7987
55.6004 280.853 16.7587
55.6684 283.583 16.8399
55.7364 280.21 16.7395
55.8044 277.366 16.6543
55.8724 283.191 16.8283
55.9404 295.842 17.2001
56.0084 310.139 17.6108
56.0764 278.157 16.6781
56.1444 291.491 17.0731
56.2124 266.482 16.3243
56.2804 266.624 16.3286
56.3484 278.212 16.6797
56.4164 272.465 16.5065
56.4844 277.1 16.6463
56.5524 296.742 17.2262
56.6204 284.635 16.8711
56.6884 314.48 17.7336
56.7564 290.441 17.0423
56.8244 285.595 16.8996
56.8924 278.299 16.6823
56.9604 285.408 16.894
57.0284 264.262 16.2561
57.0964 308.564 17.566
57.1644 277.93 16.6712
57.2324 248.693 15.77
57.3004 279.773 16.7264
57.3684 271.871 16.4885
57.4364 269.242 16.4086
57.5044 262.413 16.1992
57.5724 294.974 17.1748
57.6404 278.576 16.6906
57.7084 287.137 16.9451
57.7764 267.851 16.3662
57.8444 282.989 16.8223
57.9124 254.552 15.9547
57.9804 241.983 15.5558
58.0484 273.906 16.5501
58.1164 266 16.3095
58.1844 265.556 16.2959
58.2524 281 16.7631
58.3204 282.539 16.8089
58.3884 279.49 16.7179
58.4564 264.775 16.2719
58.5244 270.761 16.4548
58.5924 263.769 16.241
58.6604 291.211 17.0649
58.7284 267.719 16.3621
58.7964 287.004 16.9412
58.8644 262.149 16.191
58.9324 294.116 17.1498
59.0004 263.546 16.2341
59.0684 279.857 16.7289
59.1364 245.335 15.6632
59.2044 275.514 16.5986
59.2724 268.648 16.3905
59.3404 279.026 16.7041
59.4084 284.386 16.8637
59.4764 302.347 17.3881
59.5444 272.468 16.5066
59.6124 268.47 16.3851
59.6804 279.963 16.7321
59.7484 295.928 17.2026
59.8164 275.454 16.5968
59.8844 303.911 17.4331
59.9524 305.809 17.4874
60.0204 277.509 16.6586
60.0884 295.201 17.1814
60.1564 268.965 16.4002
60.2244 264.943 16.2771
60.2924 280.879 16.7594
60.3604 300.464 17.3339
60.4284 281.6 16.781
60.4964 303.796 17.4297
60.5644 307.514 17.5361
60.6324 307.957 17.5487
60.7004 326.97 18.0823
60.7684 331.495 18.207
60.8364 324.288 18.008
60.9044 314.574 17.7362
60.9724 330.413 18.1773
61.0404 315.794 17.7706
61.1084 332.952 18.247
61.1764 318.023 17.8332
61.2444 310.221 17.6131
61.3124 287.576 16.9581
61.3804 311.83 17.6587
61.4484 303.596 17.424
61.5164 313.783 17.7139
61.5844 326.501 18.0693
61.6524 335.657 18.3209
61.7204 302.77 17.4003
61.7884 312.585 17.6801
61.8564 294.616 17.1644
61.9244 352.047 18.7629
61.9924 329.915 18.1636
62.0604 284.603 16.8702
62.1284 322.468 17.9574
62.1964 334.634 18.293
62.2644 309.731 17.5992
62.3324 369.911 19.2331
62.4004 331.561 18.2088
62.4684 345.22 18.5801
62.5364 361.622 19.0164
62.6044 351.756 18.7552
62.6724 348.76 18.6751
62.7404 381.594 19.5344
62.8084 364.011 19.0791
62.8764 376.244 19.397
62.9444 406.286 20.1565
63.0124 368.267 19.1903
63.0804 364.977 19.1044
63.1484 377.179 19.4211
63.2164 346.683 18.6194
63.2844 342.554 18.5082
63.3524 330.986 18.193
63.4204 317.486 17.8181
63.4884 288.695 16.991
63.5564 283.521 16.8381
63.6244 286.414 16.9238
63.6924 292.934 17.1153
63.7604 300 17.3205
63.8284 291.856 17.0838
63.8964 281.537 16.7791
63.9644 267.274 16.3485
64.0324 286.855 16.9368
64.1004 291.855 17.0838
64.1684 303.09 17.4095
64.2364 270.757 16.4547
64.3044 260.023 16.1252
64.3724 281.998 16.7928
64.4404 297.248 17.2409
64.5084 248.415 15.7612
64.5764 277.776 16.6666
64.6444 296.858 17.2296
64.7124 289.765 17.0225
64.7804 282.436 16.8058
64.8484 283.355 16.8332
64.9164 287.523 16.9565
64.9844 259.361 16.1047
65.0524 302.246 17.3852
65.1204 268.185 16.3764
65.1884 285.884 16.9081
65.2564 263.957 16.2468
65.3244 268.525 16.3867
65.3924 280.487 16.7478
65.4604 284.318 16.8617
65.5284 290.275 17.0375
65.5964 290.507 17.0443
65.6644 289.06 17.0018
65.7324 282.54 16.8089
65.8004 295.785 17.1984
65.8684 265.675 16.2996
65.9364 290.076 17.0316
66.0044 292.779 17.1108
66.0724 283.837 16.8475
66.1404 284.303 16.8613
66.2084 287.792 16.9644
66.2764 288.565 16.9872
66.3444 300.831 17.3445
66.4124 282.153 16.7974
66.4804 266.09 16.3123
66.5484 270.195 16.4376
66.6164 262.838 16.2123
66.6844 276.366 16.6243
66.7524 255.706 15.9908
66.8204 283.964 16.8512
66.8884 312.732 17.6842
66.9564 270.533 16.4479
67.0244 297.46 17.247
67.0924 291.056 17.0603
67.1604 290.002 17.0294
67.2284 284.833 16.877
67.2964 315.494 17.7621
67.3644 318.759 17.8538
67.4324 288.67 16.9903
67.5004 298.025 17.2634
67.5684 321.398 17.9276
67.6364 311.698 17.655
67.7044 262.726 16.2088
67.7724 271.908 16.4896
67.8404 262.561 16.2037
67.9084 298.253 17.27
67.9764 300.816 17.344
68.0444 305.252 17.4715
68.1124 258.054 16.0641
68.1804 292.261 17.0957
68.2484 274.454 16.5667
68.3164 272.239 16.4997
68.3844 289.616 17.0181
68.4524 274.841 16.5783
68.5204 280.321 16.7428
68.5884 277.107 16.6465
68.6564 268.686 16.3917
68.7244 251.739 15.8663
68.7924 265.056 16.2805
68.8604 276.052 16.6148
68.9284 275.036 16.5842
68.9964 280.209 16.7394
69.0644 280.796 16.757
69.1324 277.802 16.6674
69.2004 269.946 16.43
69.2684 280.022 16.7339
69.3364 258.028 16.0633
69.4044 279.924 16.7309
69.4724 277.201 16.6494
69.5404 262.596 16.2048
69.6084 281.789 16.7866
69.6764 257.176 16.0367
69.7444 283.414 16.8349
69.8124 293.144 17.1215
69.8804 256.989 16.0309
69.9484 301.973 17.3774
70.0164 262.468 16.2009
70.0844 305.249 17.4714
70.1524 268.573 16.3882
70.2204 254.461 15.9518
70.2884 269.807 16.4258
70.3564 267.334 16.3504
70.4244 266.479 16.3242
70.4924 261.34 16.166
70.5604 288.252 16.978
70.6284 265.775 16.3026
70.6964 267.153 16.3448
70.7644 317.875 17.829
70.8324 279.404 16.7154
70.9004 252.287 15.8836
70.9684 286.781 16.9346
71.0364 289.063 17.0019
71.1044 261.966 16.1854
71.1724 260.291 16.1336
71.2404 262.077 16.1888
71.3084 267.741 16.3628
71.3764 297.296 17.2423
71.4444 273.754 16.5455
71.5124 258.54 16.0792
71.5804 267.479 16.3548
71.6484 269.532 16.4174
71.7164 275.431 16.5961
71.7844 277.663 16.6632
71.8524 309.773 17.6004
71.9204 303.882 17.4322
71.9884 296.302 17.2134
72.0564 279.571 16.7204
72.1244 302.486 17.3921
72.1924 299.215 17.2978
72.2604 327.757 18.1041
72.3284 331.678 18.212
72.3964 335.017 18.3035
72.4644 337.346 18.367
72.5324 355.747 18.8612
72.6004 384.271 19.6028
72.6684 349.522 18.6955
72.7364 359.834 18.9693
72.8044 362.453 19.0382
72.8724 413.447 20.3334
72.9404 359.869 18.9702
73.0084 414.343 20.3554
73.0764 350.359 18.7179
73.1444 379.28 19.4751
73.2124 378.318 19.4504
73.2804 353.613 18.8046
73.3484 367.104 19.16
73.4164 355.245 18.848
73.4844 305.549 17.48
73.5524 333.951 18.2743
73.6204 304.42 17.4476
73.6884 309.555 17.5942
73.7564 297.309 17.2426
73.8244 302.158 17.3827
73.8924 301.071 17.3514
73.9604 318.644 17.8506
74.0284 321.997 17.9443
74.0964 300.407 17.3322
74.1644 293.01 17.1175
74.2324 286.873 16.9373
74.3004 283.249 16.83
74.3684 297.084 17.2361
74.4364 299.922 17.3182
74.5044 279.249 16.7108
74.5724 292.7 17.1085
74.6404 277.537 16.6594
74.7084 298.633 17.281
74.7764 281.648 16.7824
74.8444 290.365 17.0401
74.9124 273.544 16.5392
74.9804 269.426 16.4142
75.0484 305.14 17.4683
75.1164 263.381 16.229
75.1844 252.695 15.8964
75.2524 256.214 16.0067
75.3204 297.569 17.2502
75.3884 277.53 16.6592
75.4564 267.992 16.3705
75.5244 271.626 16.4811
75.5924 271.053 16.4637
75.6604 287.884 16.9671
75.7284 265.877 16.3057
75.7964 277.265 16.6513
75.8644 264.184 16.2537
75.9324 269.658 16.4213
76.0004 261.027 16.1563
76.0684 267.646 16.3599
76.1364 272.71 16.5139
76.2044 283.25 16.83
76.2724 277.294 16.6522
76.3404 253 15.906
76.4084 261.982 16.1858
76.4764 273.189 16.5284
76.5444 275.042 16.5844
76.6124 243.826 15.6149
76.6804 272.11 16.4957
76.7484 308.871 17.5747
76.8164 277.73 16.6652
76.8844 263.104 16.2205
76.9524 261.665 16.1761
77.0204 271.616 16.4808
77.0884 252.314 15.8844
77.1564 257.674 16.0522
77.2244 257.14 16.0356
77.2924 275.104 16.5863
77.3604 276.004 16.6134
77.4284 276.92 16.6409
77.4964 264.656 16.2683
77.5644 298.899 17.2887
77.6324 292.49 17.1023
77.7004 253.506 15.9219
77.7684 257.414 16.0441
77.8364 248.931 15.7775
77.9044 274.703 16.5742
77.9724 277 16.6433
78.0404 287.788 16.9643
78.1084 285.187 16.8875
78.1764 255.621 15.9881
78.2444 297.52 17.2488
78.3124 245.506 15.6686
78.3804 258.132 16.0665
78.4484 261.393 16.1677
78.5164 264.463 16.2623
78.5844 275.782 16.6067
78.6524 287.627 16.9596
78.7204 261.8 16.1802
78.7884 261.196 16.1616
78.8564 297.814 17.2573
78.9244 282.091 16.7956
78.9924 284.732 16.874
79.0604 263.795 16.2418
79.1284 237.296 15.4044
79.1964 283.806 16.8465
79.2644 255.657 15.9893
79.3324 271.604 16.4804
79.4004 258.408 16.0751
79.4684 259.352 16.1044
79.5364 257.431 16.0447
79.6044 256.716 16.0224
79.6724 283.866 16.8483
79.7404 238.618 15.4473
79.8084 251.634 15.863
79.8764 260.536 16.1411
79.9444 255.722 15.9913
80.0124 283.363 16.8334
80.0804 254.874 15.9648
80.1484 252.81 15.9
80.2164 274.383 16.5645
80.2844 269.84 16.4268
80.3524 273.489 16.5375
80.4204 252.01 15.8748
80.4884 260.23 16.1316
80.5564 255.326 15.9789
80.6244 263.386 16.2292
80.6924 249.2 15.7861
80.7604 248.24 15.7556
80.8284 285.37 16.8929
80.8964 251.764 15.8671
80.9644 258.214 16.069
81.0324 260.141 16.1289
81.1004 264.291 16.257
81.1684 230.108 15.1693
81.2364 271.093 16.4649
81.3044 241.031 15.5252
81.3724 268.611 16.3894
81.4404 253.117 15.9096
81.5084 249.019 15.7803
81.5764 254.179 15.943
81.6444 256.438 16.0137
81.7124 232.301 15.2414
81.7804 276.794 16.6371
81.8484 261.957 16.1851
81.9164 270.425 16.4446
81.9844 273.797 16.5468
82.0524 268.698 16.392
82.1204 262.287 16.1953
82.1884 250.762 15.8355
82.2564 257.79 16.0559
82.3244 245.163 15.6577
82.3924 278.75 16.6958
82.4604 281.409 16.7753
82.5284 270.712 16.4533
82.5964 255.855 15.9955
82.6644 264.56 16.2653
82.7324 258.322 16.0724
82.8004 263 16.2173
82.8684 226.34 15.0446
82.9364 275.392 16.5949
83.0044 264.678 16.2689
83.0724 275.678 16.6035
83.1404 258.935 16.0915
83.2084 256.248 16.0077
83.2764 265.438 16.2923
83.3444 252.693 15.8963
83.4124 265.684 16.2998
83.4804 277.014 16.6437
83.5484 285.162 16.8867
83.6164 264.031 16.249
83.6844 261.41 16.1682
83.7524 277.79 16.667
83.8204 291.938 17.0862
83.8884 252.568 15.8924
83.9564 263.627 16.2366
84.0244 283.63 16.8413
84.0924 287.755 16.9633
84.1604 290.554 17.0456
84.2284 271.412 16.4746
84.2964 278.24 16.6805
84.3644 266.436 16.3229
84.4324 264.463 16.2623
84.5004 280.518 16.7487
84.5684 303.904 17.4328
84.6364 274.079 16.5553
84.7044 271.03 16.463
84.7724 282.867 16.8186
84.8404 232.972 15.2634
84.9084 269.687 16.4221
84.9764 278.069 16.6754
85.0444 262.314 16.1961
85.1124 281.932 16.7908
85.1804 271.599 16.4803
85.2484 288.062 16.9724
85.3164 244.566 15.6386
85.3844 281.886 16.7895
85.4524 286.608 16.9295
85.5204 273.654 16.5425
85.5884 280.018 16.7337
85.6564 266.979 16.3395
85.7244 282.795 16.8165
85.7924 315.554 17.7638
85.8604 282.863 16.8185
85.9284 263.003 16.2174
85.9964 253.348 15.9169
86.0644 271.797 16.4863
86.1324 278.126 16.6771
86.2004 272.677 16.5129
86.2684 308.421 17.5619
86.3364 265.158 16.2837
86.4044 278.671 16.6934
86.4724 267.597 16.3584
86.5404 283.133 16.8266
86.6084 280.393 16.745
86.6764 258.017 16.0629
86.7444 277.283 16.6518
86.8124 272.979 16.5221
86.8804 271.717 16.4839
86.9484 295.828 17.1996
87.0164 292.916 17.1148
87.0844 296.495 17.219
87.1524 288.718 16.9917
87.2204 277.681 16.6638
87.2884 299.345 17.3016
87.3564 270.837 16.4571
87.4244 292.905 17.1145
87.4924 330.917 18.1911
87.5604 335.201 18.3085
87.6284 302.246 17.3852
87.6964 322.731 17.9647
87.7644 315 17.7482
87.8324 342.236 18.4996
87.9004 335.828 18.3256
87.9684 331.871 18.2173
88.0364 333.287 18.2561
88.1044 325.856 18.0515
88.1724 361.301 19.0079
88.2404 343.912 18.5449
88.3084 341.039 18.4672
88.3764 372.227 19.2932
88.4444 371.431 19.2726
88.5124 359.603 18.9632
88.5804 383.885 19.593
88.6484 361.112 19.003
88.7164 363.15 19.0565
88.7844 337.477 18.3705
88.8524 346.897 18.6252
88.9204 362.671 19.0439
88.9884 326.87 18.0796
89.0564 341.018 18.4667
89.1244 295.248 17.1828
89.1924 302.852 17.4027
89.2604 283.326 16.8323
89.3284 288.909 16.9973
89.3964 278.145 16.6777
89.4644 270.506 16.4471
89.5324 300.861 17.3453
89.6004 307.124 17.525
89.6684 311.51 17.6496
89.7364 292.122 17.0916
89.8044 292.458 17.1014
89.8724 251.5 15.8587
89.9404 276.896 16.6402
89.9914 267.55 16.357